aX,aY,aZ,gX,gY,gZ
1.440,-0.321,-1.936,41.260,144.348,154.907
1.398,-0.458,-3.326,54.199,177.002,156.616
1.349,-1.044,-4.000,67.261,199.890,123.718
1.308,-1.730,-4.000,46.814,195.618,76.111
1.410,-2.325,-4.000,-31.982,151.978,46.448
1.206,-2.197,-4.000,-106.934,86.487,71.716
0.816,-1.879,-4.000,-120.422,39.734,117.737
0.449,-1.453,-4.000,-101.563,-12.024,147.644
-0.212,-0.915,-4.000,-83.557,-105.347,146.301
-0.987,-0.709,-4.000,-67.322,-225.220,113.892
-1.782,-0.731,-4.000,-59.570,-339.600,94.482
-2.571,-0.308,-3.102,-64.575,-412.415,136.841
-3.250,0.667,-1.529,-69.885,-437.561,227.051
-4.000,2.063,0.544,-77.698,-423.340,317.322
-4.000,3.993,3.789,-95.642,-389.648,381.226
-4.000,4.000,4.000,-115.112,-408.386,345.703
-4.000,4.000,4.000,-96.863,-520.508,192.993
-2.156,4.000,4.000,-132.812,-608.459,42.297
2.715,4.000,4.000,-240.540,-580.750,29.785
4.000,2.339,4.000,-146.057,-388.489,13.184
3.699,-0.268,4.000,113.953,-163.757,-227.295
-0.198,-1.604,4.000,308.838,-33.325,-507.141
-2.383,-1.415,3.658,447.449,46.265,-491.882
-2.007,0.049,2.166,395.386,134.644,-169.617
-1.260,1.717,1.621,182.495,269.470,141.785
-1.062,2.315,1.009,-10.193,391.296,243.408
-1.275,2.491,0.780,-110.229,407.837,211.792
-1.167,2.262,0.608,-118.469,344.971,143.677
-0.944,1.979,0.585,-82.031,282.349,80.322
-0.899,1.774,0.519,-24.231,238.403,22.644
-0.818,1.569,0.322,29.663,203.674,-28.320
-0.651,1.353,0.106,67.627,175.720,-61.951
-0.425,1.112,-0.074,87.097,163.452,-77.087
-0.227,0.890,-0.211,90.393,167.114,-75.134
-0.072,0.547,-0.484,90.698,180.176,-60.608
0.077,0.343,-0.766,85.754,196.472,-37.964
0.212,0.390,-0.951,69.580,203.491,-22.156
0.251,0.382,-1.073,57.678,190.979,-32.227
0.340,0.307,-1.074,56.335,156.860,-60.120
0.546,0.053,-1.063,62.439,114.319,-83.923
0.759,-0.114,-1.068,72.571,88.928,-92.041
0.893,-0.216,-1.083,76.172,87.524,-89.294
0.938,-0.499,-1.375,76.416,96.191,-83.984
0.729,-0.664,-1.962,79.651,112.732,-72.144
0.584,-0.600,-2.468,79.712,129.395,-58.289
0.539,-0.534,-2.852,68.542,127.747,-46.448
0.469,-0.369,-3.078,44.495,108.826,-39.124
0.495,-0.186,-3.054,20.813,74.402,-30.518
0.601,-0.088,-2.867,6.348,37.292,-29.358
0.658,-0.014,-2.572,0.916,0.610,-33.508
0.676,0.002,-2.251,-3.906,-26.672,-39.307
0.726,-0.001,-1.896,-11.963,-40.710,-39.368
0.787,0.006,-1.504,-23.987,-48.401,-32.898
0.873,0.022,-1.120,-32.410,-55.786,-25.940
0.961,0.020,-0.762,-36.255,-61.768,-22.034
1.028,0.036,-0.429,-33.264,-65.857,-19.958
1.110,0.081,-0.126,-25.452,-69.031,-17.212
1.196,0.191,0.081,-13.000,-69.275,-15.442
1.267,0.252,0.199,-1.648,-65.430,-20.020
1.257,0.268,0.269,3.052,-61.096,-26.245
1.263,0.281,0.382,-3.662,-56.702,-30.396
1.302,0.245,0.461,-15.747,-53.101,-31.433
1.321,0.145,0.499,-26.489,-46.204,-33.325
1.288,0.040,0.496,-33.386,-32.837,-33.875
1.229,-0.027,0.483,-36.499,-15.930,-29.114
1.171,-0.049,0.451,-34.607,-0.122,-19.470
1.115,-0.050,0.380,-26.733,11.292,-10.315
1.060,-0.065,0.273,-15.137,16.296,-4.761
0.984,-0.052,0.164,-2.869,15.991,-1.038
0.939,0.001,0.030,7.263,13.306,3.479
0.981,0.111,-0.035,9.155,8.423,6.653
1.010,0.163,-0.049,3.235,3.235,3.967
1.012,0.153,-0.050,-5.066,1.343,-1.038
1.021,0.128,-0.010,-14.771,0.305,-3.845
1.012,0.106,0.024,-18.799,0.305,-5.920
1.015,0.081,0.051,-16.602,-0.061,-7.263
1.016,0.071,0.056,-10.803,-1.282,-8.057
1.003,0.072,0.024,-2.563,-0.671,-8.850
0.987,0.084,-0.016,3.784,-0.183,-9.766
0.973,0.099,-0.048,6.409,0.061,-9.766
0.954,0.110,-0.086,6.653,1.526,-8.667
0.953,0.114,-0.128,5.005,4.333,-7.019
0.935,0.124,-0.169,1.892,7.019,-6.104
0.944,0.150,-0.180,-2.625,7.141,-5.066
0.963,0.156,-0.174,-7.751,4.272,-6.409
0.965,0.157,-0.141,-11.475,-0.183,-9.705
0.980,0.139,-0.100,-10.803,-3.662,-13.428
0.981,0.099,-0.058,-5.188,-6.653,-17.456
0.971,0.072,-0.035,3.052,-7.812,-19.104
0.967,0.063,-0.031,10.498,-5.859,-17.151
0.969,0.072,-0.026,16.052,-3.540,-12.939
0.974,0.079,-0.030,19.104,-0.671,-9.155
0.956,0.103,-0.048,19.653,2.747,-5.798
0.964,0.118,-0.082,17.700,5.493,-2.502
0.983,0.140,-0.113,12.817,7.080,-1.160
0.987,0.151,-0.136,7.080,8.179,-1.404
0.994,0.143,-0.146,1.282,8.118,-3.174
0.990,0.132,-0.136,-3.662,7.446,-6.042
0.978,0.116,-0.123,-6.042,5.615,-8.545
0.982,0.095,-0.106,-6.775,2.625,-10.010
0.991,0.068,-0.075,-5.981,-0.244,-10.925
0.989,0.041,-0.045,-4.639,-0.427,-10.559
0.981,0.028,-0.030,-2.380,2.808,-7.751
0.967,0.025,-0.042,0.916,6.897,-3.723
0.972,0.035,-0.062,3.845,9.460,-0.977
0.966,0.054,-0.077,6.470,10.315,0.244
0.957,0.073,-0.100,8.240,10.376,-0.244
0.951,0.081,-0.123,8.545,9.827,-1.587
0.944,0.094,-0.139,6.409,8.118,-2.625
0.950,0.080,-0.133,2.258,5.554,-3.723
0.962,0.068,-0.108,-2.197,3.601,-4.700
0.950,0.055,-0.092,-3.967,3.418,-5.554
0.945,0.044,-0.090,-3.540,3.235,-5.676
0.938,0.039,-0.090,-2.258,3.174,-5.615
0.936,0.037,-0.094,-0.488,3.357,-5.005
0.933,0.032,-0.088,1.465,2.747,-4.272
0.940,0.029,-0.088,3.662,1.770,-3.418
0.941,0.035,-0.092,5.737,1.099,-2.686
0.945,0.046,-0.091,6.714,0.671,-2.258

1.665,-0.643,-1.405,25.269,28.076,37.659
1.834,-0.893,-1.945,25.330,53.406,46.692
1.928,-1.102,-2.512,18.921,83.130,60.181
1.834,-1.203,-3.095,5.493,110.107,73.853
1.604,-1.264,-3.742,-18.860,132.446,88.745
1.337,-1.216,-4.000,-58.655,152.161,115.295
0.988,-1.014,-4.000,-110.596,165.771,161.133
0.526,-0.629,-4.000,-164.185,157.166,213.745
0.035,-0.325,-4.000,-190.308,118.408,240.234
-0.391,-0.043,-4.000,-182.495,40.833,232.727
-0.822,0.117,-4.000,-149.231,-73.792,187.744
-1.379,0.298,-3.791,-100.037,-199.646,124.084
-2.145,0.561,-2.597,-59.326,-312.927,80.505
-3.017,1.202,-0.817,-46.509,-393.494,94.299
-3.986,2.530,1.938,-70.068,-419.617,160.339
-4.000,4.000,4.000,-126.038,-394.775,237.610
-4.000,4.000,4.000,-180.481,-364.746,287.476
-3.496,4.000,4.000,-218.872,-437.500,329.407
1.040,4.000,4.000,-244.263,-529.419,368.164
4.000,2.026,4.000,-199.036,-486.328,291.199
4.000,-0.325,4.000,-45.898,-373.352,43.762
3.944,-1.001,4.000,172.546,-225.586,-269.226
1.588,-0.838,3.913,354.797,-80.078,-415.527
0.328,0.387,2.345,370.422,65.125,-301.941
-0.043,1.702,1.473,231.445,219.788,-80.505
-0.510,2.188,0.714,63.171,359.497,43.152
-1.215,1.869,0.112,-53.101,413.330,47.974
-1.562,1.451,-0.201,-102.783,381.226,4.028
-1.531,1.140,-0.391,-93.750,308.777,-39.490
-1.275,1.032,-0.450,-65.186,235.535,-65.613
-0.986,1.060,-0.420,-36.316,181.641,-74.585
-0.737,1.052,-0.345,-14.160,138.245,-78.613
-0.452,0.923,-0.242,-0.366,98.816,-83.374
-0.150,0.850,-0.057,7.874,65.613,-85.754
0.134,0.812,0.106,17.944,46.326,-86.853
0.339,0.856,0.238,28.625,42.786,-91.248
0.391,0.893,0.319,37.048,54.077,-100.525
0.370,0.854,0.239,48.950,67.627,-108.521
0.380,0.726,0.076,59.570,75.012,-111.877
0.387,0.612,-0.013,64.331,75.378,-111.572
0.375,0.547,0.012,61.523,73.242,-107.849
0.418,0.387,-0.058,59.509,71.594,-102.234
0.484,0.176,-0.191,63.965,69.702,-95.520
0.550,0.030,-0.305,69.214,67.078,-88.623
0.640,-0.085,-0.427,73.120,66.162,-82.764
0.737,-0.159,-0.558,73.608,67.139,-78.003
0.762,-0.148,-0.650,69.092,67.932,-72.327
0.802,-0.163,-0.796,64.453,68.054,-68.848
0.843,-0.198,-0.918,57.922,66.589,-64.087
0.869,-0.198,-0.948,45.593,63.904,-54.810
0.911,-0.193,-0.944,34.180,61.096,-44.495
0.981,-0.214,-0.935,28.259,58.533,-36.072
1.011,-0.243,-0.965,25.269,51.636,-29.968
1.054,-0.230,-1.000,26.611,46.997,-28.442
1.085,-0.201,-0.966,34.546,35.828,-32.227
1.116,-0.161,-0.925,44.434,20.569,-35.706
1.154,-0.149,-0.906,55.115,7.324,-39.246
1.145,-0.157,-0.870,61.523,-0.244,-43.091
1.078,-0.131,-0.830,60.974,-1.770,-43.762
1.020,-0.103,-0.789,53.772,0.366,-40.100
0.990,-0.101,-0.759,43.274,1.465,-34.607
0.993,-0.114,-0.745,32.166,-0.122,-29.480
1.012,-0.146,-0.749,24.902,-4.822,-25.635
1.026,-0.156,-0.729,22.156,-11.169,-22.095
1.032,-0.138,-0.666,22.034,-18.066,-20.203
1.039,-0.108,-0.580,23.499,-25.085,-19.043
1.065,-0.062,-0.469,24.780,-31.311,-17.578
1.078,-0.042,-0.397,26.001,-34.973,-15.564
1.092,-0.014,-0.351,28.625,-34.363,-13.245
1.123,0.020,-0.326,30.151,-31.433,-11.108
1.128,0.042,-0.315,29.968,-26.794,-9.827
1.119,0.036,-0.305,26.489,-20.813,-10.498
1.104,0.019,-0.310,19.592,-14.587,-12.329
1.078,-0.009,-0.326,11.536,-9.888,-13.550
1.056,-0.038,-0.313,2.930,-7.629,-13.977
1.040,-0.059,-0.285,-3.967,-6.226,-12.695
1.039,-0.063,-0.251,-7.629,-4.761,-10.254
1.040,-0.061,-0.228,-8.240,-3.479,-8.179
1.024,-0.046,-0.205,-5.798,-2.319,-7.385
1.010,-0.040,-0.206,-1.953,-1.648,-7.385
1.001,-0.037,-0.219,2.319,-1.221,-6.042
1.013,-0.022,-0.222,5.005,-0.366,-3.296
1.032,0.007,-0.209,5.127,1.831,-0.366
1.040,0.026,-0.205,3.601,4.761,2.014
1.031,0.031,-0.216,0.671,8.606,2.747
1.025,0.052,-0.221,-4.822,12.024,2.869
1.010,0.053,-0.225,-11.292,13.306,3.906
1.011,0.049,-0.214,-16.602,13.611,3.723
1.006,0.040,-0.196,-17.395,12.451,0.549
0.995,0.019,-0.201,-11.292,8.362,-4.883
0.977,-0.007,-0.217,-2.258,2.747,-11.597
0.959,-0.036,-0.218,6.531,-3.357,-17.151
0.947,-0.050,-0.192,13.550,-7.629,-19.104
0.947,-0.048,-0.161,17.883,-9.277,-17.395
0.957,-0.052,-0.159,19.470,-6.958,-13.550
0.956,-0.039,-0.158,17.944,-2.136,-8.484
0.967,0.002,-0.164,13.794,3.662,-3.174
0.964,0.023,-0.198,7.874,10.071,-0.183
0.958,0.026,-0.232,0.366,14.893,1.892
0.954,0.009,-0.246,-7.629,16.296,3.174
0.960,-0.005,-0.237,-14.709,16.052,4.089
0.951,-0.017,-0.228,-18.005,15.198,3.540
0.940,-0.022,-0.225,-16.602,12.512,1.709
0.939,-0.018,-0.214,-12.573,7.385,-1.221
0.944,-0.026,-0.194,-6.714,0.793,-4.761
0.947,-0.038,-0.163,-0.549,-4.517,-8.057
0.943,-0.047,-0.144,4.761,-6.775,-8.972
0.950,-0.040,-0.131,8.240,-5.981,-6.653
0.969,-0.026,-0.131,8.728,-3.479,-2.930
0.981,-0.016,-0.145,7.263,0.854,-0.366
0.977,-0.013,-0.160,4.272,5.249,0.854
0.964,-0.008,-0.169,0.977,9.033,1.038
0.958,-0.001,-0.186,-2.930,12.207,1.587
0.948,-0.001,-0.206,-6.287,14.160,2.930
0.952,0.001,-0.214,-9.277,13.489,3.723
0.947,0.005,-0.205,-10.132,10.986,2.991
0.943,0.003,-0.196,-8.240,7.324,1.221
0.940,0.001,-0.190,-5.554,4.150,-0.732
0.933,-0.007,-0.193,-3.052,1.831,-2.075

1.256,-0.630,-1.066,-46.387,-1.282,36.804
1.351,-0.939,-1.588,-18.311,24.597,35.828
1.555,-1.336,-2.353,9.399,58.167,37.598
1.532,-1.593,-3.218,22.888,93.872,45.654
1.188,-1.751,-3.999,19.165,133.484,54.932
0.740,-1.895,-4.000,-13.611,166.443,62.439
0.429,-1.981,-4.000,-70.190,183.655,84.106
-0.095,-1.735,-4.000,-142.517,172.424,139.038
-0.792,-1.400,-4.000,-187.317,140.869,182.190
-1.376,-1.172,-4.000,-192.749,72.632,189.575
-1.932,-1.047,-4.000,-168.152,-41.077,168.213
-2.578,-0.955,-4.000,-142.395,-184.509,146.851
-3.166,-0.895,-3.223,-118.103,-317.810,163.452
-3.926,-0.546,-1.498,-79.346,-399.231,242.859
-4.000,1.008,1.135,-26.672,-418.335,371.277
-4.000,4.000,4.000,38.330,-419.739,446.594
-4.000,4.000,4.000,142.456,-468.689,299.927
-2.516,4.000,4.000,117.310,-586.304,77.881
0.721,4.000,4.000,-63.110,-624.695,77.209
3.937,3.094,4.000,-198.120,-489.746,194.946
4.000,0.578,4.000,-124.268,-291.687,180.115
4.000,0.027,4.000,8.057,-91.736,9.460
3.178,0.310,3.939,110.413,76.050,-131.592
1.834,1.161,2.364,130.676,202.820,-105.286
0.972,1.839,1.306,64.148,307.556,-5.371
-0.174,1.516,0.554,-32.166,367.798,21.729
-1.355,0.855,-0.254,-89.722,359.924,-17.151
-2.105,0.378,-0.965,-83.984,310.242,-48.462
-2.028,0.266,-1.360,-65.796,237.915,-35.583
-1.502,0.342,-1.349,-59.448,167.053,-5.554
-0.926,0.385,-1.193,-54.199,109.558,14.709
-0.497,0.370,-0.936,-41.626,57.739,18.494
-0.163,0.342,-0.731,-22.034,11.292,11.719
0.178,0.379,-0.560,4.028,-23.987,-0.610
0.418,0.531,-0.326,22.644,-42.847,-16.174
0.490,0.636,-0.118,32.715,-39.856,-31.067
0.535,0.740,0.100,29.114,-31.250,-38.391
0.591,0.875,0.336,15.625,-26.306,-38.879
0.644,0.989,0.533,5.127,-22.705,-41.138
0.700,1.041,0.673,3.174,-22.034,-51.636
0.724,1.033,0.772,9.155,-27.527,-69.885
0.689,1.027,0.886,18.494,-39.001,-91.492
0.644,0.939,0.916,30.701,-49.438,-113.647
0.619,0.718,0.823,46.387,-52.673,-130.005
0.627,0.450,0.669,58.289,-43.640,-135.010
0.622,0.206,0.531,61.157,-21.667,-128.479
0.616,0.038,0.398,59.753,9.277,-110.962
0.621,-0.035,0.261,57.983,42.664,-88.379
0.634,-0.028,0.107,58.594,71.106,-68.054
0.667,-0.025,-0.091,61.523,88.989,-53.284
0.696,-0.033,-0.292,66.040,99.182,-43.945
0.745,0.001,-0.424,64.270,99.854,-38.940
0.808,0.055,-0.474,55.298,93.689,-35.828
0.870,0.044,-0.490,47.058,84.900,-37.476
0.904,0.015,-0.493,41.748,75.928,-41.504
0.890,-0.044,-0.504,41.260,67.383,-46.021
0.868,-0.073,-0.504,44.495,59.998,-49.683
0.854,-0.132,-0.554,53.833,53.772,-49.377
0.896,-0.113,-0.492,63.599,44.067,-40.771
0.929,-0.022,-0.559,65.735,45.044,-27.344
0.995,0.047,-0.538,69.336,45.959,-13.855
1.034,0.132,-0.503,71.289,44.556,-6.592
1.068,0.211,-0.459,68.420,44.373,-5.249
1.075,0.248,-0.435,63.843,43.823,-8.789
1.091,0.229,-0.479,60.242,43.640,-16.785
1.085,0.179,-0.532,53.833,43.030,-26.489
1.049,0.178,-0.521,43.579,38.940,-34.180
1.037,0.147,-0.505,33.752,31.250,-38.879
1.027,0.083,-0.496,27.039,21.851,-41.504
1.003,0.072,-0.412,21.973,10.620,-42.175
1.002,0.095,-0.324,18.921,-0.305,-38.635
1.032,0.091,-0.287,20.691,-6.531,-33.752
1.032,0.119,-0.264,24.719,-6.531,-29.602
1.028,0.168,-0.254,26.855,-4.883,-26.062
1.041,0.177,-0.268,27.100,-1.465,-25.696
1.039,0.161,-0.290,24.841,2.625,-27.344
1.020,0.144,-0.276,20.569,4.272,-28.442
1.010,0.137,-0.230,15.442,3.967,-29.236
0.986,0.118,-0.186,10.620,5.493,-27.954
0.968,0.113,-0.158,6.287,7.935,-24.597
0.949,0.125,-0.138,2.869,10.925,-20.081
0.953,0.103,-0.175,1.404,13.611,-15.381
0.966,0.084,-0.199,1.953,15.991,-10.315
0.982,0.083,-0.200,1.099,17.761,-5.798
1.001,0.098,-0.189,2.136,17.822,-5.188
1.026,0.083,-0.199,5.127,16.235,-9.216
1.022,0.055,-0.215,9.094,14.038,-16.968
0.993,0.020,-0.240,12.939,11.902,-25.269
0.938,-0.015,-0.258,16.724,9.766,-32.104
0.899,-0.019,-0.267,19.348,7.080,-34.790
0.896,-0.033,-0.290,20.508,4.333,-33.630
0.905,-0.042,-0.305,20.447,3.540,-30.212
0.912,-0.024,-0.286,18.005,4.456,-25.452
0.925,-0.010,-0.256,13.489,5.310,-20.325
0.953,-0.001,-0.226,9.460,6.775,-15.442
0.995,0.010,-0.213,6.958,7.751,-13.245
1.006,0.005,-0.217,6.775,8.240,-15.198
0.992,-0.006,-0.232,9.460,7.202,-20.447
0.975,-0.021,-0.247,14.160,4.333,-25.452
0.967,-0.029,-0.262,18.494,1.404,-28.076
0.967,-0.039,-0.278,22.095,0.061,-28.381
0.959,-0.044,-0.286,24.109,0.122,-26.489
0.952,-0.044,-0.280,23.560,0.977,-22.827
0.965,-0.032,-0.270,20.691,2.686,-17.273
0.995,-0.019,-0.255,16.174,5.005,-10.803
1.021,-0.010,-0.244,10.864,8.423,-5.188
1.040,-0.007,-0.245,6.470,12.695,-2.441
1.041,-0.014,-0.251,3.540,16.052,-2.136
1.039,-0.017,-0.256,1.709,17.517,-2.502
1.033,-0.026,-0.265,1.831,17.761,-4.333
1.024,-0.031,-0.270,3.296,16.785,-6.531
1.022,-0.029,-0.266,5.249,15.015,-9.094
1.011,-0.038,-0.264,8.118,12.817,-11.536
0.997,-0.042,-0.267,11.536,11.108,-13.245
0.978,-0.043,-0.269,14.221,9.766,-13.916
0.955,-0.050,-0.280,16.113,9.277,-13.306
0.940,-0.054,-0.291,16.174,9.583,-11.108
0.933,-0.048,-0.292,14.954,10.315,-8.118
0.937,-0.033,-0.279,12.756,10.559,-4.700

1.461,-0.612,-0.869,-39.246,-17.395,111.450
1.741,-0.713,-1.028,-42.236,5.371,139.771
1.977,-0.862,-1.380,-30.701,47.729,156.860
1.965,-1.188,-2.075,-7.507,100.403,139.587
1.534,-1.695,-3.226,15.381,147.217,77.698
0.730,-2.027,-4.000,3.235,172.974,13.489
-0.114,-2.077,-4.000,-67.688,185.120,7.690
-0.629,-2.046,-4.000,-181.274,195.190,68.909
-1.053,-1.936,-4.000,-281.189,202.637,167.908
-1.551,-1.714,-4.000,-318.481,187.683,249.023
-2.119,-1.557,-4.000,-312.866,120.605,287.170
-2.717,-1.671,-4.000,-288.452,2.930,300.110
-3.469,-1.655,-2.977,-240.417,-142.090,326.294
-4.000,-1.380,-1.112,-153.992,-272.644,401.978
-4.000,0.234,2.002,-8.850,-357.361,543.457
-4.000,3.999,4.000,223.694,-416.809,644.958
-3.995,4.000,4.000,482.239,-553.284,517.639
-1.611,4.000,4.000,612.305,-824.402,166.199
1.888,4.000,4.000,410.156,-881.348,-80.872
4.000,3.286,4.000,30.457,-626.892,-61.035
4.000,-0.452,4.000,-205.505,-415.466,9.888
4.000,-1.891,4.000,-218.323,-193.298,-84.473
3.499,-2.012,4.000,-47.241,62.866,-214.111
1.223,0.199,3.488,128.601,325.256,-129.272
0.260,2.113,1.173,156.555,476.257,35.522
-0.728,2.412,-0.126,54.626,499.268,54.016
-2.203,1.681,-1.108,-58.594,444.519,-15.381
-3.242,0.654,-2.154,-98.694,373.718,-66.711
-3.177,0.157,-2.772,-98.816,293.396,-42.297
-2.323,0.130,-2.762,-94.543,199.890,7.996
-1.497,0.142,-2.312,-85.876,94.421,19.226
-0.943,0.150,-1.650,-62.134,-12.939,-3.174
-0.452,0.100,-0.929,-35.645,-105.713,-30.029
-0.057,0.115,-0.193,-19.470,-164.001,-40.222
0.236,0.196,0.424,-11.475,-174.561,-28.992
0.483,0.322,0.874,-12.390,-145.081,-5.615
0.660,0.496,1.096,-14.343,-99.548,17.456
0.787,0.608,1.149,-4.333,-53.650,24.170
0.881,0.698,1.114,9.766,-24.780,18.616
0.961,0.838,1.143,25.208,-14.526,1.038
0.949,0.943,1.147,45.166,-12.207,-29.846
0.843,0.993,1.133,67.078,-14.221,-65.796
0.680,0.975,1.101,86.304,-17.212,-94.910
0.515,0.934,1.039,95.825,-18.799,-109.253
0.397,0.838,0.932,94.055,-14.343,-109.009
0.290,0.736,0.819,84.717,-1.587,-97.595
0.254,0.629,0.749,68.665,19.287,-79.163
0.329,0.487,0.701,56.458,42.236,-58.716
0.483,0.410,0.662,54.321,58.899,-42.847
0.606,0.468,0.713,58.777,67.749,-38.086
0.688,0.477,0.629,79.102,75.256,-48.157
0.764,0.401,0.490,108.459,78.003,-67.810
0.774,0.304,0.273,140.076,78.674,-89.905
0.749,0.213,0.072,159.485,80.383,-101.379
0.750,0.151,-0.088,164.001,88.074,-99.304
0.785,0.077,-0.205,155.945,100.525,-83.191
0.834,0.048,-0.283,142.395,114.197,-58.655
0.879,0.095,-0.355,127.686,125.183,-35.828
0.898,0.178,-0.454,115.173,132.019,-24.475
0.967,0.274,-0.416,103.271,126.099,-26.428
0.915,0.358,-0.664,88.379,127.380,-33.813
0.952,0.329,-0.786,89.355,118.835,-46.997
0.978,0.207,-0.882,91.553,92.224,-63.843
0.964,0.154,-0.862,84.839,65.430,-73.242
0.962,0.171,-0.738,70.007,39.917,-73.547
1.009,0.070,-0.659,56.396,19.104,-67.688
1.050,-0.006,-0.619,45.776,12.207,-57.983
1.083,-0.006,-0.560,36.743,16.113,-49.011
1.100,-0.000,-0.545,31.860,24.048,-43.701
1.113,0.034,-0.528,29.480,31.067,-40.588
1.123,0.081,-0.497,27.161,32.349,-39.246
1.140,0.078,-0.505,27.222,29.053,-39.978
1.138,0.068,-0.533,29.724,25.635,-42.175
1.107,0.088,-0.516,31.128,23.193,-45.105
1.055,0.102,-0.475,27.588,20.386,-46.570
1.039,0.052,-0.464,21.057,16.907,-44.434
1.046,0.048,-0.425,13.977,13.916,-39.490
1.076,0.079,-0.344,5.676,9.827,-32.471
1.105,0.098,-0.256,-2.869,6.409,-26.001
1.148,0.087,-0.235,-7.446,6.714,-21.790
1.162,0.051,-0.251,-6.470,10.071,-21.729
1.129,0.013,-0.286,-3.540,14.893,-26.367
1.068,-0.025,-0.331,0.610,18.188,-33.936
1.007,-0.075,-0.363,6.104,17.883,-40.283
0.969,-0.072,-0.355,9.888,14.526,-42.847
0.953,-0.053,-0.313,10.376,9.460,-41.321
0.958,-0.059,-0.263,8.484,6.165,-36.438
0.955,-0.058,-0.218,4.700,7.446,-28.748
0.959,-0.060,-0.198,-1.160,13.123,-19.165
0.955,-0.054,-0.197,-8.911,21.851,-8.728
0.964,-0.030,-0.211,-17.395,31.677,0.610
0.975,-0.020,-0.233,-24.902,39.795,7.202
0.984,-0.016,-0.248,-28.748,43.762,9.033
0.974,-0.018,-0.260,-27.527,43.701,4.761
0.956,-0.026,-0.261,-20.996,39.001,-2.991
0.943,-0.047,-0.261,-11.536,29.358,-12.146
0.927,-0.058,-0.249,-1.221,17.883,-20.203
0.921,-0.068,-0.243,9.216,7.141,-25.208
0.920,-0.071,-0.236,17.334,0.916,-26.550
0.915,-0.062,-0.229,21.301,-0.977,-23.743
0.925,-0.053,-0.227,21.362,-0.427,-17.578
0.952,-0.027,-0.217,17.944,2.380,-9.949
0.985,-0.010,-0.211,12.695,7.446,-3.174
1.006,-0.006,-0.222,6.775,14.343,1.160
1.012,-0.011,-0.242,1.099,21.912,3.662
1.000,-0.019,-0.254,-3.479,27.222,3.479
0.996,-0.015,-0.240,-7.141,28.564,1.770
0.996,-0.022,-0.224,-9.888,27.466,-0.732
0.983,-0.033,-0.219,-10.132,26.428,-3.052
0.968,-0.046,-0.229,-9.033,25.757,-4.944
0.953,-0.068,-0.257,-7.019,24.170,-6.287
0.926,-0.091,-0.293,-3.845,22.034,-7.263
0.897,-0.092,-0.314,-0.793,20.386,-7.690
0.885,-0.085,-0.321,1.953,18.005,-6.775
0.886,-0.079,-0.330,4.333,14.771,-4.272
0.885,-0.075,-0.346,5.310,13.489,-1.770
0.878,-0.061,-0.348,4.761,13.611,1.221
0.876,-0.036,-0.338,2.258,12.695,4.944
0.896,-0.009,-0.329,-1.221,11.230,8.606

1.493,-0.512,-1.039,-40.466,13.855,27.832
1.522,-0.611,-1.306,-40.649,32.166,37.231
1.555,-0.746,-1.718,-37.781,60.181,51.819
1.576,-0.891,-2.188,-38.025,89.783,69.824
1.489,-1.077,-2.762,-38.574,117.371,82.092
1.282,-1.375,-3.494,-31.921,146.484,73.242
0.872,-1.767,-4.000,-23.804,169.922,30.823
0.359,-2.022,-4.000,-39.307,162.292,-20.386
-0.103,-2.072,-4.000,-87.952,94.299,-33.752
-0.600,-2.022,-4.000,-128.845,4.333,-11.230
-1.226,-2.001,-4.000,-136.169,-61.523,13.550
-2.015,-2.061,-3.911,-126.160,-102.966,34.912
-2.818,-2.142,-3.588,-119.446,-141.724,68.665
-3.575,-2.080,-2.854,-125.916,-191.895,138.733
-4.000,-1.405,-1.527,-143.188,-239.014,261.169
-4.000,-0.289,0.324,-119.568,-261.353,420.044
-4.000,2.330,3.269,-56.335,-293.701,590.698
-4.000,4.000,4.000,13.550,-370.422,704.834
-4.000,4.000,4.000,97.351,-490.906,697.510
-1.279,4.000,4.000,167.114,-583.435,584.106
3.577,4.000,4.000,139.282,-534.790,437.195
4.000,4.000,4.000,85.571,-473.389,323.303
4.000,3.543,4.000,20.691,-497.986,103.638
4.000,1.209,4.000,-77.637,-328.186,-195.923
1.657,-0.607,4.000,-16.541,35.828,-441.711
-1.747,-0.883,2.520,69.214,319.580,-353.394
-1.757,-0.079,0.694,38.452,460.693,-72.754
-1.703,0.338,-0.246,-43.640,455.811,56.885
-2.373,0.169,-1.006,-71.045,367.737,-6.836
-2.817,0.011,-1.821,-25.146,250.549,-76.721
-2.449,0.168,-2.244,23.132,140.991,-60.181
-1.664,0.443,-2.131,35.706,50.781,-4.700
-0.882,0.556,-1.614,23.376,-23.987,28.137
-0.215,0.492,-0.867,0.671,-85.327,32.776
0.304,0.351,-0.140,-25.269,-118.652,30.884
0.649,0.333,0.495,-54.382,-120.239,41.016
0.922,0.549,1.016,-74.524,-91.309,64.270
1.179,0.856,1.312,-74.280,-35.400,81.299
1.313,1.242,1.440,-62.073,16.724,83.801
1.266,1.524,1.353,-34.729,63.171,55.725
1.037,1.636,1.110,1.465,90.210,4.028
0.809,1.624,0.883,32.227,94.788,-53.467
0.612,1.511,0.704,53.528,83.374,-100.586
0.494,1.382,0.633,63.538,68.237,-128.174
0.419,1.303,0.624,60.181,56.702,-135.742
0.293,1.227,0.641,53.162,54.810,-130.554
0.270,1.031,0.485,57.251,63.965,-124.695
0.379,0.771,0.264,57.190,68.848,-114.441
0.560,0.529,0.068,50.598,73.303,-106.506
0.722,0.319,-0.118,43.274,80.688,-100.952
0.835,0.153,-0.265,40.222,92.163,-94.727
0.894,0.090,-0.357,37.842,105.530,-86.243
0.879,0.097,-0.406,37.415,117.432,-78.613
0.831,0.172,-0.403,42.480,124.573,-74.768
0.759,0.244,-0.476,50.415,127.258,-72.876
0.708,0.269,-0.642,60.608,128.296,-75.012
0.670,0.261,-0.797,65.491,124.634,-79.346
0.687,0.170,-0.948,63.171,112.000,-83.252
0.724,0.051,-1.017,55.542,89.539,-86.670
0.754,-0.015,-0.981,44.006,61.218,-89.050
0.791,-0.033,-0.853,32.166,33.264,-91.858
0.816,-0.086,-0.737,24.597,13.306,-93.872
0.796,-0.192,-0.712,20.386,6.287,-91.675
0.843,-0.182,-0.595,11.414,5.310,-81.360
0.848,-0.128,-0.647,3.723,19.531,-65.369
0.897,-0.095,-0.591,7.996,24.109,-50.232
0.896,-0.059,-0.567,9.949,20.996,-40.344
0.898,-0.006,-0.534,11.780,18.982,-36.133
0.909,0.076,-0.474,14.893,14.465,-37.109
0.898,0.131,-0.440,19.958,8.911,-40.833
0.890,0.162,-0.438,25.513,3.662,-46.570
0.896,0.151,-0.463,27.100,-1.282,-53.345
0.919,0.134,-0.450,20.752,-8.972,-56.030
0.958,0.124,-0.380,8.057,-20.081,-54.016
1.001,0.093,-0.292,-3.418,-26.978,-49.744
1.023,0.099,-0.162,-12.329,-27.100,-44.067
1.055,0.115,-0.030,-20.386,-23.193,-37.842
1.085,0.093,0.031,-24.536,-14.404,-31.372
1.095,0.037,0.016,-21.362,-2.258,-26.367
1.078,0.008,-0.025,-14.832,8.545,-23.376
1.037,0.015,-0.074,-6.958,15.625,-22.339
1.018,0.014,-0.136,1.465,16.235,-23.071
1.019,0.026,-0.190,8.850,12.939,-24.658
1.011,0.038,-0.234,14.282,9.338,-27.527
0.981,0.064,-0.250,17.212,6.958,-31.067
0.957,0.100,-0.247,16.052,3.479,-33.325
0.952,0.114,-0.244,10.864,0.183,-33.020
0.951,0.106,-0.239,3.784,-0.854,-31.189
0.957,0.098,-0.221,-3.845,0.549,-29.358
0.972,0.061,-0.200,-10.986,3.479,-27.283
0.981,0.023,-0.192,-15.625,7.935,-25.330
0.971,-0.001,-0.178,-16.418,12.268,-24.780
0.965,-0.022,-0.183,-13.428,14.160,-24.902
0.962,-0.060,-0.205,-6.958,13.977,-26.550
0.948,-0.084,-0.239,0.305,12.756,-28.625
0.930,-0.091,-0.264,6.531,10.315,-29.480
0.921,-0.085,-0.278,11.047,7.385,-28.381
0.916,-0.076,-0.286,13.428,3.479,-25.696
0.936,-0.053,-0.278,12.939,0.732,-21.790
0.952,-0.033,-0.269,9.521,0.488,-18.616
0.961,-0.026,-0.273,5.432,2.380,-15.259
0.978,-0.035,-0.281,0.183,5.310,-11.963
0.978,-0.049,-0.277,-5.066,9.094,-9.216
0.968,-0.054,-0.261,-9.399,12.756,-7.202
0.961,-0.068,-0.249,-11.414,15.076,-5.737
0.952,-0.087,-0.245,-9.827,15.442,-5.493
0.937,-0.094,-0.242,-6.104,14.343,-5.859
0.922,-0.098,-0.247,-1.282,11.841,-6.042
0.913,-0.101,-0.260,3.723,9.338,-5.432
0.919,-0.091,-0.272,7.690,6.958,-3.967
0.921,-0.083,-0.276,9.644,4.822,-2.380
0.925,-0.070,-0.278,9.583,3.540,-1.038
0.923,-0.051,-0.272,8.423,4.089,0.610
0.935,-0.032,-0.262,5.493,5.249,2.502
0.943,-0.026,-0.262,2.808,6.653,4.089
0.944,-0.022,-0.258,0.610,7.568,5.066
0.958,-0.016,-0.250,-0.793,6.958,5.249
0.970,-0.015,-0.245,0.183,4.883,3.967
0.974,-0.014,-0.242,2.808,2.075,1.404
